# Begin of measurement: 22.11.2018 11:51:49
# R-Sample[Ohm]	I-Coil[A]	U-Magnetometer[V]
# Kei2000	HP E3631A +6V : I	Kei2000
8.57848981E+2	-1.17073000E-2	-6.80089561E-2
8.56329899E+2	-1.18200200E-2	-6.80187051E-2
8.56627141E+2	-1.16762000E-2	-6.79831081E-2
8.56096690E+2	-1.18277900E-2	-6.80020693E-2
8.56002262E+2	-1.18161300E-2	-6.79819901E-2
8.55541066E+2	-1.16839700E-2	-6.79848521E-2
8.55745637E+2	-1.17383900E-2	-6.79946011E-2
8.55753337E+2	-1.18588800E-2	-6.79907999E-2
8.56145682E+2	-1.17811500E-2	-6.79892347E-2
8.56763492E+2	-1.16567700E-2	-6.79661592E-2
8.56647630E+2	-1.18005800E-2	-6.80221932E-2
8.56012619E+2	-1.16956300E-2	-6.79888769E-2
8.55396566E+2	-1.16995200E-2	-6.79972843E-2
8.55030743E+2	-1.17850300E-2	-6.79896819E-2
8.55340098E+2	-1.16606500E-2	-6.80088667E-2
8.55797647E+2	-1.17772600E-2	-6.79703182E-2
8.55777158E+2	-1.16995200E-2	-6.80411992E-2
8.55330057E+2	-1.17073000E-2	-6.80197336E-2
8.55446062E+2	-6.99639200E-3	-6.80314502E-2
8.55810038E+2	-2.07559600E-3	-4.64758085E-2
8.55674228E+2	2.63919500E-3	-2.23594631E-2
8.55773834E+2	7.42394900E-3	3.69274186E-3
8.56084540E+2	1.19405100E-2	2.94854817E-2
8.55866415E+2	1.67136000E-2	4.94978927E-2
8.55489290E+2	2.13117900E-2	7.80678918E-2
8.55811307E+2	2.62714500E-2	1.01052667E-1
8.55575676E+2	3.10367700E-2	1.25463610E-1
8.56070329E+2	3.57554500E-2	1.49279560E-1
8.55526053E+2	4.04624700E-2	1.75195114E-1
8.56130894E+2	4.52938700E-2	2.22401848E-1
8.56153589E+2	5.06072300E-2	2.27380936E-1
8.56437773E+2	5.47778600E-2	2.51476962E-1
8.57009292E+2	5.96714500E-2	2.74908179E-1
8.56501056E+2	6.45456000E-2	2.98785971E-1
8.56493086E+2	6.91982000E-2	3.21599604E-1
8.56066383E+2	7.38818900E-2	3.47358769E-1
8.55721004E+2	7.88299000E-2	3.73418141E-1
8.56200482E+2	8.35563600E-2	3.97934133E-1
8.57095630E+2	8.82983500E-2	4.21792606E-1
8.56531181E+2	9.29820400E-2	4.47478341E-1
8.56247884E+2	9.78989500E-2	4.71235701E-1
8.55878391E+2	1.02710900E-1	4.93955377E-1
8.56009834E+2	1.07452900E-1	5.19933582E-1
8.55939362E+2	1.12218200E-1	5.46542026E-1
8.55673055E+2	1.16878600E-1	5.71488807E-1
8.55443088E+2	1.21795500E-1	5.93125631E-1
8.56219267E+2	1.26747400E-1	6.19337876E-1
8.57395357E+2	1.31446700E-1	6.46035877E-1
8.57980797E+2	1.36192500E-1	6.70540553E-1
8.58298617E+2	1.41012300E-1	6.94872252E-1
8.58160691E+2	1.45680400E-1	7.20021300E-1
8.57376091E+2	1.50473000E-1	7.43450369E-1
8.57195476E+2	1.55316000E-1	7.66202153E-1
8.56864507E+2	1.60232900E-1	7.92254278E-1
8.57281573E+2	1.64800000E-1	8.18853285E-1
8.57512897E+2	1.69666400E-1	8.43245177E-1
8.57631834E+2	1.74412300E-1	8.66941404E-1
8.57712527E+2	1.79399100E-1	8.91427879E-1
8.57498365E+2	1.84148900E-1	9.17994061E-1
8.57311716E+2	1.88890900E-1	9.42079426E-1
8.57595585E+2	1.93605700E-1	9.64540349E-1
8.56786308E+2	1.98409900E-1	9.90762185E-1
8.56153774E+2	2.03186900E-1	1.01633974E+0
8.55931613E+2	2.08189300E-1	1.03803183E+0
8.56821249E+2	2.12880800E-1	1.06642792E+0
8.57314191E+2	2.17661600E-1	1.09047077E+0
8.57497102E+2	2.22333700E-1	1.11408904E+0
8.57471570E+2	2.27180600E-1	1.13896932E+0
8.57674430E+2	2.31938100E-1	1.16450797E+0
8.58203981E+2	2.36726800E-1	1.18662272E+0
8.58713932E+2	2.41628200E-1	1.21305308E+0
8.59664734E+2	2.46311900E-1	1.23804239E+0
8.60108053E+2	2.51217100E-1	1.26287973E+0
8.59625603E+2	2.55974700E-1	1.28877426E+0
8.59089568E+2	2.60759400E-1	1.31166173E+0
8.58633280E+2	2.65497500E-1	1.33474135E+0
8.57130272E+2	2.70262800E-1	1.36038375E+0
8.57056693E+2	2.75070900E-1	1.38592199E+0
8.57249907E+2	2.79778000E-1	1.41121745E+0
8.57559045E+2	2.84582100E-1	1.43334405E+0
8.57091004E+2	2.89549600E-1	1.45946477E+0
8.57344703E+2	2.94182700E-1	1.48362174E+0
8.56859281E+2	2.99033500E-1	1.50625341E+0
8.56813215E+2	3.04078700E-1	1.53509387E+0
8.57115095E+2	3.08505900E-1	1.55892493E+0
8.56640075E+2	3.13376200E-1	1.58337147E+0
8.56380884E+2	3.18312500E-1	1.60367653E+0
8.55460563E+2	3.23062300E-1	1.63216420E+0
8.54867159E+2	3.27870300E-1	1.65767311E+0
8.54498589E+2	3.32515200E-1	1.68029480E+0
8.54889269E+2	3.37397100E-1	1.70347375E+0
8.54852389E+2	3.42119700E-1	1.72931054E+0
8.55520273E+2	3.47129800E-1	1.75460963E+0
8.55741657E+2	3.51751400E-1	1.77991144E+0
8.55873846E+2	3.56493400E-1	1.80211101E+0
8.56567396E+2	3.61433600E-1	1.82819100E+0
8.56715274E+2	3.66086200E-1	1.85260740E+0
8.56349271E+2	3.71073100E-1	1.87584247E+0
8.56774984E+2	3.75896700E-1	1.90162037E+0
8.56758233E+2	3.80355000E-1	1.92683309E+0
8.56851084E+2	3.85411800E-1	1.95135315E+0
8.57129630E+2	3.90052700E-1	1.97313634E+0
8.56868817E+2	3.94829700E-1	1.99808884E+0
8.57269673E+2	3.99618400E-1	2.02387090E+0
8.56689238E+2	4.04527500E-1	2.04914280E+0
8.56020183E+2	4.09288900E-1	2.07150672E+0
8.55755272E+2	4.13894800E-1	2.09862944E+0
8.55784137E+2	4.18943900E-1	2.12056191E+0
8.56386047E+2	4.23670400E-1	2.14642053E+0
8.55736494E+2	4.28167500E-1	2.16934623E+0
8.56198906E+2	4.33103800E-1	2.19544012E+0
8.55884283E+2	4.38098500E-1	2.21869102E+0
8.55758379E+2	4.42762800E-1	2.24470755E+0
8.56110333E+2	4.47613600E-1	2.26742400E+0
8.55130392E+2	4.52262300E-1	2.29344643E+0
8.54677527E+2	4.57179200E-1	2.31797422E+0
8.54433612E+2	4.62002800E-1	2.33943838E+0
8.54033112E+2	4.66706000E-1	2.36491983E+0
8.54048603E+2	4.71576300E-1	2.39110379E+0
8.54647095E+2	4.76411500E-1	2.41699930E+0
8.54526144E+2	4.81239000E-1	2.43852330E+0
8.54120830E+2	4.85833300E-1	2.46397863E+0
8.53734789E+2	4.90789100E-1	2.49055388E+0
8.54803578E+2	4.95527200E-1	2.51577519E+0
8.55166154E+2	5.00222600E-1	2.53742118E+0
8.55109147E+2	5.05046200E-1	2.58848233E+0
8.55610509E+2	5.10200200E-1	2.59245155E+0
8.55981015E+2	5.14674000E-1	2.61619442E+0
8.55432236E+2	5.19466500E-1	2.63935906E+0
8.54868056E+2	5.24278500E-1	2.66722186E+0
8.54737064E+2	5.29109900E-1	2.69735840E+0
8.54848020E+2	5.33766400E-1	2.72785105E+0
8.55043079E+2	5.38799900E-1	2.76868933E+0
8.56552706E+2	5.43316500E-1	2.81445611E+0
8.57222571E+2	5.48202300E-1	2.87454061E+0
8.56389068E+2	5.53119200E-1	2.93985915E+0
8.56390959E+2	5.57907800E-1	3.02592292E+0
8.56725306E+2	5.62684800E-1	3.11553219E+0
8.56479739E+2	5.67403500E-1	3.17918012E+0
8.56621870E+2	5.72137700E-1	3.21765606E+0
8.57281963E+2	5.76899200E-1	3.25035944E+0
8.57212887E+2	5.81757700E-1	3.27767307E+0
8.57156240E+2	5.86612500E-1	3.30379308E+0
8.57563625E+2	5.91377800E-1	3.32826493E+0
8.57304523E+2	5.96065300E-1	3.35853147E+0
8.57232295E+2	6.00908400E-1	3.38411954E+0
8.57799552E+2	6.05817600E-1	3.41124507E+0
8.57911219E+2	6.10524600E-1	3.43652676E+0
8.57326056E+2	6.15410400E-1	3.46431460E+0
8.57097439E+2	6.20156300E-1	3.49080333E+0
8.57195919E+2	6.24824400E-1	3.51490946E+0
8.57599612E+2	6.29737400E-1	3.54530600E+0
8.57136525E+2	6.34681600E-1	3.57069994E+0
8.57287780E+2	6.39240900E-1	3.59935839E+0
8.57750280E+2	6.44060600E-1	3.62202078E+0
8.57790852E+2	6.49055200E-1	3.65026781E+0
8.58438157E+2	6.53657300E-1	3.67854059E+0
8.58509394E+2	6.58663700E-1	3.70534424E+0
8.58082150E+2	6.63289000E-1	3.72976046E+0
8.57855740E+2	6.67821200E-1	3.75876155E+0
8.57546340E+2	6.72613700E-1	3.78461897E+0
8.57461377E+2	6.77227400E-1	3.80763806E+0
8.56861974E+2	6.81907200E-1	3.83476825E+0
8.56514298E+2	6.86552000E-1	3.86320409E+0
8.56641733E+2	6.91216300E-1	3.88579506E+0
8.56841035E+2	6.95857200E-1	3.91211935E+0
8.56870620E+2	7.00276600E-1	3.94288810E+0
8.57031422E+2	7.05119700E-1	3.96574243E+0
8.57233380E+2	7.09807300E-1	3.99149605E+0
8.57321157E+2	7.14347100E-1	4.01727359E+0
8.57464751E+2	7.18762600E-1	4.04095752E+0
8.57542067E+2	7.23508500E-1	4.06625504E+0
8.58123808E+2	7.28258300E-1	4.09119068E+0
8.57412742E+2	7.32879800E-1	4.11737529E+0
8.56188290E+2	7.37563500E-1	4.14388144E+0
8.56488549E+2	7.42204400E-1	4.16903344E+0
8.56561587E+2	7.46619900E-1	4.19500207E+0
8.55735109E+2	7.51342500E-1	4.22101649E+0
8.54715138E+2	7.56061200E-1	4.24874012E+0
8.54695280E+2	7.60593300E-1	4.27454114E+0
8.55107889E+2	7.65413000E-1	4.29747726E+0
8.55339117E+2	7.69824600E-1	4.32344911E+0
8.56533264E+2	7.74415100E-1	4.34857494E+0
8.55951073E+2	7.79071600E-1	4.37438929E+0
8.55622580E+2	7.83607500E-1	4.40256423E+0
8.55503474E+2	7.88287400E-1	4.42822572E+0
8.55798780E+2	7.92687300E-1	4.45184378E+0
8.55802157E+2	7.97495400E-1	4.47852905E+0
8.56425911E+2	8.02120800E-1	4.50402566E+0
8.57180296E+2	8.06683900E-1	4.52718922E+0
8.57944857E+2	8.11511400E-1	4.55554416E+0
8.57706199E+2	8.16195200E-1	4.58054572E+0
8.57775095E+2	8.20789400E-1	4.60714575E+0
8.57156438E+2	8.25302100E-1	4.63275625E+0
8.56653049E+2	8.30040300E-1	4.65782595E+0
8.56056719E+2	8.34657900E-1	4.68442911E+0
8.56191719E+2	8.39372700E-1	4.71033026E+0
8.56184919E+2	8.44021400E-1	4.73523088E+0
8.55781317E+2	8.48569000E-1	4.76162753E+0
8.55875024E+2	8.53140000E-1	4.78696350E+0
8.55438504E+2	8.57711000E-1	4.80977723E+0
8.55010189E+2	8.62425800E-1	4.83578301E+0
8.55591119E+2	8.66985100E-1	4.86375711E+0
8.55697839E+2	8.71734900E-1	4.88851683E+0
8.54940888E+2	8.76360200E-1	4.91481531E+0
8.55880796E+2	8.80946700E-1	4.93989164E+0
8.56968356E+2	8.85521700E-1	4.96328924E+0
8.56799855E+2	8.90236500E-1	4.99194995E+0
8.57165717E+2	8.94854100E-1	5.01607858E+0
8.57695902E+2	8.99487200E-1	5.04146969E+0
8.57466565E+2	9.04128200E-1	5.06752839E+0
8.56734831E+2	9.08784700E-1	5.09267511E+0
8.55786998E+2	9.13530500E-1	5.12058812E+0
8.55749263E+2	9.18163700E-1	5.14364131E+0
8.56416695E+2	9.22831800E-1	5.17197107E+0
8.56580559E+2	9.27402800E-1	5.19724341E+0
8.55671865E+2	9.31903800E-1	5.21971037E+0
8.55009620E+2	9.36575900E-1	5.24669495E+0
8.54553197E+2	9.41146900E-1	5.27084038E+0
8.54707199E+2	9.45791600E-1	5.29625632E+0
8.54487454E+2	9.50475400E-1	5.32130185E+0
8.54692024E+2	9.55275600E-1	5.34736734E+0
8.54981521E+2	9.59714500E-1	5.37319627E+0
8.55638326E+2	9.64460400E-1	5.39776645E+0
8.55365557E+2	9.69229600E-1	5.42471186E+0
8.55301727E+2	9.73851100E-1	5.45008056E+0
8.54950944E+2	9.78348200E-1	5.47521695E+0
8.55153578E+2	9.82934800E-1	5.50371011E+0
8.55328339E+2	9.84757700E-1	5.52540149E+0
8.55672367E+2	9.84625500E-1	5.53865920E+0
8.55530703E+2	9.84726600E-1	5.53999235E+0
8.56610699E+2	9.84668400E-1	5.53999436E+0
8.56619570E+2	9.84594400E-1	5.53998493E+0
8.56156717E+2	9.84637200E-1	5.53995304E+0
8.55994754E+2	9.84784900E-1	5.53990461E+0
8.55759609E+2	9.84781100E-1	5.53993006E+0
8.55913521E+2	9.84641100E-1	5.53993323E+0
